Rxx(Ohm),ne(cm-2)
18955.18,-1.98E+13
18569.482,-1.98E+13
16931.32,-1.98E+13
17035.215,-1.98E+13
16386.717,-1.97E+13
16478.148,-1.97E+13
16177.674,-1.97E+13
16707.475,-1.97E+13
18688.988,-1.96E+13
18032.369,-1.96E+13
18066.867,-1.96E+13
15852.398,-1.96E+13
16520.568,-1.96E+13
18365.242,-1.95E+13
17715.938,-1.95E+13
17562.91,-1.95E+13
16820.152,-1.95E+13
19104.621,-1.95E+13
20093.355,-1.94E+13
19979.207,-1.94E+13
22700.293,-1.94E+13
22440.113,-1.94E+13
21430.828,-1.93E+13
21675.426,-1.93E+13
21862.508,-1.93E+13
18250.281,-1.93E+13
17800.494,-1.93E+13
15487.785,-1.92E+13
15776.578,-1.92E+13
17377.756,-1.92E+13
19986.787,-1.92E+13
19369.34,-1.92E+13
19548.635,-1.91E+13
19270.445,-1.91E+13
20513.303,-1.91E+13
19238.209,-1.91E+13
19324.074,-1.90E+13
20072.322,-1.90E+13
19121.539,-1.90E+13
18962.959,-1.90E+13
17509.07,-1.90E+13
15813.276,-1.89E+13
16330.435,-1.89E+13
16145.361,-1.89E+13
16206.742,-1.89E+13
15786.22,-1.89E+13
14605.758,-1.88E+13
15784.09,-1.88E+13
16419.32,-1.88E+13
15782.076,-1.88E+13
17535.666,-1.87E+13
16639.285,-1.87E+13
17155.799,-1.87E+13
15600.171,-1.87E+13
17079.754,-1.87E+13
20943.15,-1.86E+13
20612.779,-1.86E+13
17197.363,-1.86E+13
16290.341,-1.86E+13
17740.572,-1.86E+13
19183.514,-1.85E+13
17928.629,-1.85E+13
19198.141,-1.85E+13
18378.361,-1.85E+13
18003.623,-1.84E+13
18685.031,-1.84E+13
18074.734,-1.84E+13
22064.68,-1.84E+13
21677.172,-1.84E+13
20646.512,-1.83E+13
19139.334,-1.83E+13
18896.314,-1.83E+13
20568.133,-1.83E+13
19644.463,-1.83E+13
17696.826,-1.82E+13
20268.471,-1.82E+13
19891.684,-1.82E+13
19431.328,-1.82E+13
18283.516,-1.82E+13
19544.572,-1.81E+13
21279.959,-1.81E+13
18928.779,-1.81E+13
19360.664,-1.81E+13
17566.762,-1.80E+13
16819.752,-1.80E+13
18102.953,-1.80E+13
17168.125,-1.80E+13
18137.463,-1.80E+13
19252.492,-1.79E+13
22294.012,-1.79E+13
22579.035,-1.79E+13
21268.242,-1.79E+13
21041.037,-1.79E+13
17713.049,-1.78E+13
18746.1,-1.78E+13
18976.926,-1.78E+13
22222.121,-1.78E+13
22390.926,-1.77E+13
19637.943,-1.77E+13
19090.35,-1.77E+13
21207.256,-1.77E+13
19694.805,-1.77E+13
20016.064,-1.76E+13
17037.518,-1.76E+13
17556.379,-1.76E+13
23949.336,-1.76E+13
24990.408,-1.76E+13
24378.076,-1.75E+13
20884.168,-1.75E+13
18986.064,-1.75E+13
21924.332,-1.75E+13
18412.805,-1.74E+13
18901.602,-1.74E+13
21653.197,-1.74E+13
22342.352,-1.74E+13
23763.162,-1.74E+13
22630.723,-1.73E+13
21578.51,-1.73E+13
19295.141,-1.73E+13
17416.756,-1.73E+13
19586.273,-1.73E+13
20396.906,-1.72E+13
22558.396,-1.72E+13
21484.451,-1.72E+13
24219.98,-1.72E+13
24563.711,-1.71E+13
23082.025,-1.71E+13
18424.283,-1.71E+13
21413.855,-1.71E+13
23968.346,-1.71E+13
22638.721,-1.70E+13
20522.93,-1.70E+13
20789.814,-1.70E+13
22956.25,-1.70E+13
26864.789,-1.70E+13
24684.055,-1.69E+13
26446.35,-1.69E+13
24954.912,-1.69E+13
27191.299,-1.69E+13
24916.941,-1.68E+13
27292.582,-1.68E+13
29284.318,-1.68E+13
27390.975,-1.68E+13
21735.232,-1.68E+13
20370.947,-1.67E+13
21611.436,-1.67E+13
19655.223,-1.67E+13
20198.215,-1.67E+13
18263.748,-1.67E+13
19027.195,-1.66E+13
22942.102,-1.66E+13
22720.832,-1.66E+13
23523.816,-1.66E+13
20706.234,-1.65E+13
16393.459,-1.65E+13
18370.102,-1.65E+13
19953.436,-1.65E+13
19043.207,-1.65E+13
18838.805,-1.64E+13
20684.234,-1.64E+13
23023.148,-1.64E+13
20294.146,-1.64E+13
20168.5,-1.64E+13
21744.08,-1.63E+13
25623.146,-1.63E+13
22455.465,-1.63E+13
25272.916,-1.63E+13
24449.988,-1.62E+13
21679.188,-1.62E+13
21560.521,-1.62E+13
25262.273,-1.62E+13
26320.227,-1.62E+13
23263.963,-1.61E+13
19657.348,-1.61E+13
19408.053,-1.61E+13
23034.807,-1.61E+13
25375.477,-1.61E+13
22282.223,-1.60E+13
20609.816,-1.60E+13
21880.264,-1.60E+13
20790.627,-1.60E+13
24663.059,-1.59E+13
26852.174,-1.59E+13
31934.818,-1.59E+13
30751.543,-1.59E+13
32447.307,-1.59E+13
31855.25,-1.58E+13
33215.691,-1.58E+13
31275.549,-1.58E+13
29695.545,-1.58E+13
29510.471,-1.58E+13
27327.074,-1.57E+13
28489.223,-1.57E+13
31112.648,-1.57E+13
30702.857,-1.57E+13
33389.02,-1.56E+13
32119.074,-1.56E+13
28656.92,-1.56E+13
30652.117,-1.56E+13
29360.668,-1.56E+13
34963.691,-1.55E+13
31580.141,-1.55E+13
32210.531,-1.55E+13
34857.438,-1.55E+13
34804.348,-1.55E+13
32132.85,-1.54E+13
28952.961,-1.54E+13
33561.172,-1.54E+13
34199.52,-1.54E+13
35845.957,-1.53E+13
31901.113,-1.53E+13
35690.09,-1.53E+13
36492.785,-1.53E+13
34267.934,-1.53E+13
34024.668,-1.52E+13
29479.727,-1.52E+13
30875.18,-1.52E+13
31963.072,-1.52E+13
33831.598,-1.52E+13
33216.859,-1.51E+13
27694.607,-1.51E+13
31205.318,-1.51E+13
35479.953,-1.51E+13
42666.266,-1.50E+13
38715.324,-1.50E+13
35861.766,-1.50E+13
32567.684,-1.50E+13
35753.426,-1.50E+13
30580.717,-1.49E+13
28953.039,-1.49E+13
37019.207,-1.49E+13
38917.715,-1.49E+13
37377.969,-1.49E+13
37218.059,-1.48E+13
35562.77,-1.48E+13
36485.469,-1.48E+13
34460.215,-1.48E+13
36249.781,-1.47E+13
41473.152,-1.47E+13
36943.859,-1.47E+13
43735.418,-1.47E+13
39751.402,-1.47E+13
42282.273,-1.46E+13
48938.035,-1.46E+13
50952.461,-1.46E+13
49636.332,-1.46E+13
49909.965,-1.46E+13
41858.078,-1.45E+13
48909.793,-1.45E+13
36735.148,-1.45E+13
39553.402,-1.45E+13
39418.633,-1.45E+13
37905.641,-1.44E+13
44934.66,-1.44E+13
42083.234,-1.44E+13
46845.488,-1.44E+13
48434.199,-1.43E+13
50876.75,-1.43E+13
41172.941,-1.43E+13
48379.551,-1.43E+13
43696.496,-1.43E+13
45370.02,-1.42E+13
49647.188,-1.42E+13
48588.875,-1.42E+13
41890.238,-1.42E+13
42488.359,-1.42E+13
46739.418,-1.41E+13
51291.367,-1.41E+13
49151.391,-1.41E+13
49807.574,-1.41E+13
62659.34,-1.40E+13
52893.711,-1.40E+13
50169.578,-1.40E+13
53091.41,-1.40E+13
50635.102,-1.40E+13
46185.773,-1.39E+13
48034.09,-1.39E+13
50881.414,-1.39E+13
45541.488,-1.39E+13
52836.145,-1.39E+13
69331.133,-1.38E+13
75324.375,-1.38E+13
65308.512,-1.38E+13
54553.953,-1.38E+13
61240.867,-1.37E+13
65779.25,-1.37E+13
58771.992,-1.37E+13
55973.988,-1.37E+13
50863.516,-1.37E+13
59146.289,-1.36E+13
53783.566,-1.36E+13
49886.129,-1.36E+13
66409.102,-1.36E+13
76285.734,-1.36E+13
77820.383,-1.35E+13
83260.883,-1.35E+13
54404.203,-1.35E+13
72896.047,-1.35E+13
72221.516,-1.34E+13
69739.305,-1.34E+13
81765.328,-1.34E+13
72341.844,-1.34E+13
84409.719,-1.34E+13
60225.363,-1.33E+13
66558.734,-1.33E+13
80102.016,-1.33E+13
79014.781,-1.33E+13
67235.289,-1.33E+13
58267.684,-1.32E+13
57215.711,-1.32E+13
76060.25,-1.32E+13
65140.672,-1.32E+13
92689.648,-1.31E+13
94772.789,-1.31E+13
95304.367,-1.31E+13
94694.727,-1.31E+13
64488.418,-1.31E+13
95551.242,-1.30E+13
108761.18,-1.30E+13
99497.656,-1.30E+13
180292.33,-1.30E+13
108128.09,-1.30E+13
102876.13,-1.29E+13
87341.766,-1.29E+13
107052.51,-1.29E+13
95872.688,-1.29E+13
119741.41,-1.28E+13
134316.75,-1.28E+13
138659.62,-1.28E+13
100893.34,-1.28E+13
93068.578,-1.28E+13
129575.02,-1.27E+13
121092.18,-1.27E+13
122982.59,-1.27E+13
85923.734,-1.27E+13
115617.19,-1.27E+13
105996.05,-1.26E+13
136740.89,-1.26E+13
106459.94,-1.26E+13
93216.227,-1.26E+13
84040.312,-1.25E+13
91277.469,-1.25E+13
116051.3,-1.25E+13
125254.91,-1.25E+13
201231.95,-1.25E+13
207501.38,-1.24E+13
240174.09,-1.24E+13
210710.22,-1.24E+13
194771.59,-1.24E+13
227553.55,-1.24E+13
225664.38,-1.23E+13
137788.28,-1.23E+13
188108.45,-1.23E+13
198847.83,-1.23E+13
185510.59,-1.22E+13
188113.31,-1.22E+13
225841.12,-1.22E+13
316708.91,-1.22E+13
307551.44,-1.22E+13
288683.22,-1.21E+13
309789.34,-1.21E+13
285060.28,-1.21E+13
336472.97,-1.21E+13
377598.31,-1.21E+13
315970.28,-1.20E+13
336989.78,-1.20E+13
339175.47,-1.20E+13
306785,-1.20E+13
212322.36,-1.19E+13
184047.97,-1.19E+13
336253.75,-1.19E+13
442246.34,-1.19E+13
448743.56,-1.19E+13
311994.12,-1.18E+13
264594.97,-1.18E+13
377514.81,-1.18E+13
331773.25,-1.18E+13
413383.06,-1.18E+13
375999.41,-1.17E+13
585075.38,-1.17E+13
552602.56,-1.17E+13
741435.5,-1.17E+13
486417.06,-1.16E+13
740229.75,-1.16E+13
568647.19,-1.16E+13
379283.25,-1.16E+13
259684.67,-1.16E+13
740989.44,-1.15E+13
738791.94,-1.15E+13
557033.69,-1.15E+13
905507.44,-1.15E+13
918925.38,-1.15E+13
994772.19,-1.14E+13
808889.44,-1.14E+13
498919.5,-1.14E+13
950938.75,-1.14E+13
809943.62,-1.13E+13
1026042.3,-1.13E+13
1320899.2,-1.13E+13
1469896.2,-1.13E+13
1231649.5,-1.13E+13
798452,-1.12E+13
853091.12,-1.12E+13
535168.19,-1.12E+13
973845.38,-1.12E+13
1994187.6,-1.12E+13
3342082.5,-1.11E+13
1300592.2,-1.11E+13
2553845.8,-1.11E+13
1335747.4,-1.11E+13
1920479.2,-1.10E+13
1856394.8,-1.10E+13
2696946.2,-1.10E+13
2852195.8,-1.10E+13
4687557.5,-1.10E+13
4562433,-1.09E+13
3373361.2,-1.09E+13